<?xml version="1.0" encoding="UTF-8"?>
<Bundle xmlns="http://hl7.org/fhir">
	<id value="drug-combo-product-bundle"/>
	<type value="collection"/>
	<entry>
		<fullUrl value="urn:uuid:e19deb42-7137-48b0-aef1-d37019d0316e"/>
		<resource>
			<MedicinalProductDefinition>
				<id value="drug-combo-product-bundle-mp"/>
				<identifier>
					<system value="http://example.org.uk/fhir/product"/>
					<value value="ThrushTreatCombo"/>
				</identifier>
				<combinedPharmaceuticalDoseForm>
					<coding>
						<system value="http://example.org.uk/fhir/doseform"/>
						<code value="Tablet and Cream for topical application"/>
					</coding>
				</combinedPharmaceuticalDoseForm>
				<packagedMedicinalProduct>
					<reference value="PackagedProductDefinition/packageCombo"/>
				</packagedMedicinalProduct>
				<name>
					<productName value="ThrushTreat Combo"/>
				</name>
			</MedicinalProductDefinition>
		</resource>
	</entry>
	<entry>
		<fullUrl value="urn:uuid:7d95129b-ea17-48fb-844c-70317219723d"/>
		<resource>
			<PackagedProductDefinition>
				<id value="packageCombo"/>
				<package>
					<type>
						<coding>
							<code value="Box"/>
						</coding>
					</type>
					<package>
						<type>
							<coding>
								<code value="blister pack"/>
							</coding>
						</type>
						<containedItem>
							<item>
								<reference value="ManufacturedItemDefinition/tabletItem"/>
							</item>
							<amountQuantity>
								<value value="1"/>
							</amountQuantity>
						</containedItem>
					</package>
					<package>
						<type>
							<coding>
								<code value="tube"/>
							</coding>
						</type>
						<containedItem>
							<item>
								<reference value="ManufacturedItemDefinition/creamItem"/>
							</item>
							<amountQuantity>
								<value value="1"/>
							</amountQuantity>
						</containedItem>
					</package>
				</package>
			</PackagedProductDefinition>
		</resource>
	</entry>
	<entry>
		<fullUrl value="urn:uuid:4b9d12e2-c4c3-4533-85d0-7f78a6b91a53"/>
		<resource>
			<ManufacturedItemDefinition>
				<id value="tabletItem"/>
				<manufacturedDoseForm>
					<coding>
						<system value="http://example.org.uk/fhir/doseform"/>
						<code value="tablet"/>
					</coding>
				</manufacturedDoseForm>
				<!-- would normally go on to have ingredients here (see other examples) -->
			</ManufacturedItemDefinition>
		</resource>
	</entry>
	<entry>
		<fullUrl value="urn:uuid:9a66d8b9-1793-4e43-8cc3-89af55d86d0c"/>
		<resource>
			<ManufacturedItemDefinition>
				<id value="creamItem"/>
				<manufacturedDoseForm>
					<coding>
						<system value="http://example.org.uk/fhir/doseform"/>
						<code value="Cream for topical applcation"/>
					</coding>
				</manufacturedDoseForm>
				<!-- would normally go on to have ingredients here (see other examples) -->
			</ManufacturedItemDefinition>
		</resource>
	</entry>
</Bundle>
